Original,Scramble,trials.thisRepN,trials.thisTrialN,trials.thisN,trials.thisIndex,TODO.started,TODO.stopped,baselineImage.started,baselineImage.stopped,image.started,image.stopped,rating.response,rating.rt,rating.started,rating.stopped,RatingText.started,RatingText.stopped,ThanksText.started,ThanksText.stopped,id*,participant*,Interested In(Men/Women)*,date,expName,psychopyVersion,frameRate,
women1/13-original.jpg,women1/13-scramble.jpg,0,0,0,4,21.80467719997978,None,24.55668159999186,None,26.515650799963623,None,4,1.344,0.014095860067754984,None,31.355996300000697,None,,,r1,r1,w,2020_Nov_09_1024,EYEswipe,3.2.3,60.02029885893217,
women1/11-original.jpg,women1/11-scramble.jpg,0,1,1,2,,,32.88704949995736,None,34.8972263999749,None,3,1.372,0.015660839912015945,None,39.733301599975675,None,,,r1,r1,w,2020_Nov_09_1024,EYEswipe,3.2.3,60.02029885893217,
women1/32-original.jpg,women1/32-scramble.jpg,0,2,2,25,,,41.28791249997448,None,43.30385689996183,None,2,1.182,0.01567073998739943,None,48.181426999974065,None,,,r1,r1,w,2020_Nov_09_1024,EYEswipe,3.2.3,60.02029885893217,
women1/30-original.jpg,women1/30-scramble.jpg,0,3,3,23,,,49.51908589998493,None,51.60435939999297,None,3,1.189,0.015786339936312288,None,56.487832099955995,None,,,r1,r1,w,2020_Nov_09_1024,EYEswipe,3.2.3,60.02029885893217,
women1/12-original.jpg,women1/12-scramble.jpg,0,4,4,3,,,57.833132799947634,None,59.89545129996259,None,3,0.838,0.015755339991301298,None,64.77733169996645,None,,,r1,r1,w,2020_Nov_09_1024,EYEswipe,3.2.3,60.02029885893217,
women1/34-original.jpg,women1/34-scramble.jpg,0,5,5,27,,,65.75690709997434,None,67.83513909997419,None,2,0.985,0.015780940011609346,None,72.71668669994688,None,,,r1,r1,w,2020_Nov_09_1024,EYEswipe,3.2.3,60.02029885893217,
women1/16-original.jpg,women1/16-scramble.jpg,0,6,6,7,,,73.85527479997836,None,75.92718889995012,None,2,0.957,0.015798339969478548,None,80.80626419995679,None,,,r1,r1,w,2020_Nov_09_1024,EYEswipe,3.2.3,60.02029885893217,
women1/24-original.jpg,women1/24-scramble.jpg,0,7,7,16,,,81.93867119995411,None,84.08958879997954,None,2,0.968,0.015466939948964864,None,88.8602988999919,None,,,r1,r1,w,2020_Nov_09_1024,EYEswipe,3.2.3,60.02029885893217,
women1/6-original.jpg,women1/6-scramble.jpg,0,8,8,30,,,90.11379669996677,None,92.238629999978,None,3,1.021,0.01380363997304812,None,96.88802629994461,None,,,r1,r1,w,2020_Nov_09_1024,EYEswipe,3.2.3,60.02029885893217,
women1/4-original.jpg,women1/4-scramble.jpg,0,9,9,28,,,98.14241779997246,None,100.21119209995959,None,1,1.217,0.014676740043796599,None,104.99427919997834,None,,,r1,r1,w,2020_Nov_09_1024,EYEswipe,3.2.3,60.02029885893217,
women1/27-original.jpg,women1/27-scramble.jpg,0,10,10,19,,,106.41119859996252,None,108.41349439998157,None,2,0.692,0.015376639959868044,None,113.29728889995022,None,,,r1,r1,w,2020_Nov_09_1024,EYEswipe,3.2.3,60.02029885893217,
women1/28-original.jpg,women1/28-scramble.jpg,0,11,11,20,,,114.14443459996255,None,116.23041509999894,None,3,1.017,0.013862639956641942,None,121.10848479997367,None,,,r1,r1,w,2020_Nov_09_1024,EYEswipe,3.2.3,60.02029885893217,
women1/17-original.jpg,women1/17-scramble.jpg,0,12,12,8,,,122.41504809999606,None,124.48147329996573,None,2,0.807,0.01371634000679478,None,129.25576869997894,None,,,r1,r1,w,2020_Nov_09_1024,EYEswipe,3.2.3,60.02029885893217,
women1/7-original.jpg,women1/7-scramble.jpg,0,13,13,31,,,130.29065579996677,None,132.3874123999849,None,2,1.044,0.015205039991997182,None,137.15792259998852,None,,,r1,r1,w,2020_Nov_09_1024,EYEswipe,3.2.3,60.02029885893217,
women1/10-original.jpg,women1/10-scramble.jpg,0,14,14,1,,,138.46479909995105,None,140.5492896999931,None,3,1.312,0.013770040066447109,None,145.3343770999927,None,,,r1,r1,w,2020_Nov_09_1024,EYEswipe,3.2.3,60.02029885893217,
women1/29-original.jpg,women1/29-scramble.jpg,0,15,15,21,,,146.85996659996454,None,148.87826469994616,None,3,1.06,0.013790239987429231,None,153.76399229996605,None,,,r1,r1,w,2020_Nov_09_1024,EYEswipe,3.2.3,60.02029885893217,
women1/31-original.jpg,women1/31-scramble.jpg,0,16,16,24,,,154.99741289997473,None,157.08418839995284,None,3,0.947,0.014861239935271442,None,161.8386971,None,,,r1,r1,w,2020_Nov_09_1024,EYEswipe,3.2.3,60.02029885893217,
women1/15-original.jpg,women1/15-scramble.jpg,0,17,17,6,,,162.96773669996765,None,165.06841349997558,None,2,1.171,0.014866839977912605,None,169.82711149996612,None,,,r1,r1,w,2020_Nov_09_1024,EYEswipe,3.2.3,60.02029885893217,
women1/3-original.jpg,women1/3-scramble.jpg,0,18,18,22,,,171.17091749998508,None,173.25249139999505,None,4,1.192,0.013849640032276511,None,178.1223500999622,None,,,r1,r1,w,2020_Nov_09_1024,EYEswipe,3.2.3,60.02029885893217,
women1/14-original.jpg,women1/14-scramble.jpg,0,19,19,5,,,179.48843449994456,None,181.59929179999745,None,4,1.085,0.014881439972668886,None,186.35937339998782,None,,,r1,r1,w,2020_Nov_09_1024,EYEswipe,3.2.3,60.02029885893217,
women1/21-original.jpg,women1/21-scramble.jpg,0,20,20,13,,,187.6227319999598,None,189.74067639996065,None,1,1.254,0.01358433993300423,None,194.5085042999708,None,,,r1,r1,w,2020_Nov_09_1024,EYEswipe,3.2.3,60.02029885893217,
women1/20-original.jpg,women1/20-scramble.jpg,0,21,21,12,,,195.97761839994928,None,197.96576229995117,None,1,0.997,0.013841939973644912,None,202.85642069997266,None,,,r1,r1,w,2020_Nov_09_1024,EYEswipe,3.2.3,60.02029885893217,
women1/8-original.jpg,women1/8-scramble.jpg,0,22,22,32,,,204.0945807999815,None,206.13218759995652,None,3,1.123,0.013870239956304431,None,210.9063818999566,None,,,r1,r1,w,2020_Nov_09_1024,EYEswipe,3.2.3,60.02029885893217,
women1/19-original.jpg,women1/19-scramble.jpg,0,23,23,10,,,212.2352313999436,None,214.2211876999936,None,2,0.722,0.01384213991696015,None,219.09744189999765,None,,,r1,r1,w,2020_Nov_09_1024,EYEswipe,3.2.3,60.02029885893217,
women1/23-original.jpg,women1/23-scramble.jpg,0,24,24,15,,,220.0007365999627,None,222.08655459998408,None,2,0.933,0.013867639994714409,None,226.8441680999822,None,,,r1,r1,w,2020_Nov_09_1024,EYEswipe,3.2.3,60.02029885893217,
women1/1-original.jpg,women1/1-scramble.jpg,0,25,25,0,,,227.9300708999508,None,230.013467199984,None,3,1.175,0.013760040048509836,None,234.8851365999435,None,,,r1,r1,w,2020_Nov_09_1024,EYEswipe,3.2.3,60.02029885893217,
women1/22-original.jpg,women1/22-scramble.jpg,0,26,26,14,,,236.22226640000008,None,238.3146543999901,None,3,0.512,0.013824340014252812,None,243.19256849994417,None,,,r1,r1,w,2020_Nov_09_1024,EYEswipe,3.2.3,60.02029885893217,
women1/18-original.jpg,women1/18-scramble.jpg,0,27,27,9,,,243.90284549997887,None,245.8909858999541,None,2,0.904,0.013810439966619015,None,250.769811199978,None,,,r1,r1,w,2020_Nov_09_1024,EYEswipe,3.2.3,60.02029885893217,
women1/5-original.jpg,women1/5-scramble.jpg,0,28,28,29,,,251.90846969996346,None,254.02342709997902,None,4,0.927,0.013850539980921894,None,258.8028595999931,None,,,r1,r1,w,2020_Nov_09_1024,EYEswipe,3.2.3,60.02029885893217,
women1/26-original.jpg,women1/26-scramble.jpg,0,29,29,18,,,259.927544199978,None,261.8865639999858,None,1,1.305,0.013821239932440221,None,266.765572699951,None,,,r1,r1,w,2020_Nov_09_1024,EYEswipe,3.2.3,60.02029885893217,
women1/25-original.jpg,women1/25-scramble.jpg,0,30,30,17,,,268.25065289996564,None,270.35168239998166,None,2,0.75,0.013815140002407134,None,275.1181943999836,None,,,r1,r1,w,2020_Nov_09_1024,EYEswipe,3.2.3,60.02029885893217,
women1/9-original.jpg,women1/9-scramble.jpg,0,31,31,33,,,276.1399172999663,None,278.20173209998757,None,2,0.667,0.013841739972122014,None,282.9800091999932,None,,,r1,r1,w,2020_Nov_09_1024,EYEswipe,3.2.3,60.02029885893217,
women1/2-original.jpg,women1/2-scramble.jpg,0,32,32,11,,,283.8141736999969,None,285.9385179999517,None,2,1.075,0.013885439955629408,None,290.7010579999769,None,,,r1,r1,w,2020_Nov_09_1024,EYEswipe,3.2.3,60.02029885893217,
women1/33-original.jpg,women1/33-scramble.jpg,0,33,33,26,,,291.9522802999709,None,294.0697704999475,None,2,0.979,0.013843140040989965,None,298.8293487999472,None,,,r1,r1,w,2020_Nov_09_1024,EYEswipe,3.2.3,60.02029885893217,
,,,,,,,,,,,,,,,,,,299.8257058999734,None,,,,,,,,
