Blur,Original,trials.thisRepN,trials.thisTrialN,trials.thisN,trials.thisIndex,TODO.started,TODO.stopped,baselineImage.started,baselineImage.stopped,image.started,image.stopped,rating.response,rating.rt,rating.started,rating.stopped,RatingText.started,RatingText.stopped,ThanksText.started,ThanksText.stopped,id,participant,date,expName,psychopyVersion,frameRate,
image/1-blur.jpg,image/1-original.jpg,0,0,0,0,26.77976539998781,None,30.716601799998898,None,33.16647419999936,None,Yes,6.036,0.008643530003610067,None,37.849088799994206,None,,,02,Sajed,2020_Oct_11_2053,testScript1,3.2.3,59.94736621645226,
image/2-blur.jpg,image/2-original.jpg,0,1,1,1,,,43.99589679999917,None,46.50967019998643,None,Yes,2.721,0.012568019999889657,None,51.165214699998614,None,,,02,Sajed,2020_Oct_11_2053,testScript1,3.2.3,59.94736621645226,
image/3-blur.jpg,image/3-original.jpg,0,2,2,2,,,53.98197989999608,None,56.5252913999866,None,Yes,2.235,0.01456912001594901,None,61.17745219999051,None,,,02,Sajed,2020_Oct_11_2053,testScript1,3.2.3,59.94736621645226,
image/4-blur.jpg,image/4-original.jpg,0,3,3,3,,,63.50671560000046,None,66.04479269999138,None,Yes,2.287,0.014720020000822842,None,70.69531859998824,None,,,02,Sajed,2020_Oct_11_2053,testScript1,3.2.3,59.94736621645226,
image/5-blur.jpg,image/5-original.jpg,0,4,4,4,,,73.08011260000058,None,75.63248190000013,None,Yes,2.155,0.014759020006749779,None,80.28681989999313,None,,,02,Sajed,2020_Oct_11_2053,testScript1,3.2.3,59.94736621645226,
image/6-blur.jpg,image/6-original.jpg,0,5,5,5,,,82.53102539999236,None,85.07867739998619,None,No,4.018,0.014256920010666363,None,89.73387219999859,None,,,02,Sajed,2020_Oct_11_2053,testScript1,3.2.3,59.94736621645226,
image/7-blur.jpg,image/7-original.jpg,0,6,6,6,,,93.83237559998815,None,96.37758179999946,None,Yes,2.01,0.015159119997406378,None,101.0377346999885,None,,,02,Sajed,2020_Oct_11_2053,testScript1,3.2.3,59.94736621645226,
image/8-blur.jpg,image/8-original.jpg,0,7,7,7,,,103.16004619999148,None,105.70797319999838,None,Yes,1.838,0.00039041000127326697,None,110.35851629999524,None,,,02,Sajed,2020_Oct_11_2053,testScript1,3.2.3,59.94736621645226,
image/9-blur.jpg,image/9-original.jpg,0,8,8,8,,,112.28793849999784,None,114.81885109998984,None,Yes,1.915,0.014343920003739186,None,119.47453799999494,None,,,02,Sajed,2020_Oct_11_2053,testScript1,3.2.3,59.94736621645226,
image/10-blur.jpg,image/10-original.jpg,0,9,9,9,,,121.48044189999928,None,124.00060039998789,None,Yes,2.014,0.0033508099877508357,None,128.64595919998828,None,,,02,Sajed,2020_Oct_11_2053,testScript1,3.2.3,59.94736621645226,
image/11-blur.jpg,image/11-original.jpg,0,10,10,10,,,130.74815889999445,None,133.2911296999955,None,Yes,2.14,0.013943819998530671,None,137.94808519999788,None,,,02,Sajed,2020_Oct_11_2053,testScript1,3.2.3,59.94736621645226,
image/12-blur.jpg,image/12-original.jpg,0,11,11,11,,,140.1901696999994,None,142.76694999999017,None,Yes,1.945,0.0028130099963163957,None,147.41208129998995,None,,,02,Sajed,2020_Oct_11_2053,testScript1,3.2.3,59.94736621645226,
image/13-blur.jpg,image/13-original.jpg,0,12,12,12,,,149.4406386999908,None,152.00342329998966,None,No,2.023,0.014527919993270189,None,156.66040349999093,None,,,02,Sajed,2020_Oct_11_2053,testScript1,3.2.3,59.94736621645226,
image/14-blur.jpg,image/14-original.jpg,0,13,13,13,,,158.77759469999,None,161.3339496999979,None,No,1.552,0.013818619991070591,None,165.9899250999879,None,,,02,Sajed,2020_Oct_11_2053,testScript1,3.2.3,59.94736621645226,
image/15-blur.jpg,image/15-original.jpg,0,14,14,14,,,167.63549139999668,None,170.1675882999989,None,Yes,1.977,0.014110219999565743,None,174.82050209998852,None,,,02,Sajed,2020_Oct_11_2053,testScript1,3.2.3,59.94736621645226,
image/16-blur.jpg,image/16-original.jpg,0,15,15,15,,,176.87527389999013,None,179.48248959999182,None,Yes,2.423,0.003600409996579401,None,184.12918379998882,None,,,02,Sajed,2020_Oct_11_2053,testScript1,3.2.3,59.94736621645226,
image/17-blur.jpg,image/17-original.jpg,0,16,16,16,,,186.63487789999635,None,189.18526039998687,None,No,1.709,0.01414031999593135,None,193.84028389999003,None,,,02,Sajed,2020_Oct_11_2053,testScript1,3.2.3,59.94736621645226,
image/18-blur.jpg,image/18-original.jpg,0,17,17,17,,,195.63755059998948,None,198.2011383999925,None,Yes,1.551,0.0021884100133320317,None,202.84979309998744,None,,,02,Sajed,2020_Oct_11_2053,testScript1,3.2.3,59.94736621645226,
image/20-blur.jpg,image/20-original.jpg,0,18,18,18,,,204.4917618999898,None,207.09714419998636,None,Yes,1.96,0.014513620000798255,None,211.75481509999372,None,,,02,Sajed,2020_Oct_11_2053,testScript1,3.2.3,59.94736621645226,
image/21-blur.jpg,image/21-original.jpg,0,19,19,19,,,213.80226149999362,None,216.36996549999458,None,Yes,2.492,0.014668219999293797,None,221.02427139999054,None,,,02,Sajed,2020_Oct_11_2053,testScript1,3.2.3,59.94736621645226,
image/22-blur.jpg,image/22-original.jpg,0,20,20,20,,,223.61253319999378,None,226.1071971999918,None,No,2.348,0.014131920004729182,None,230.76043549999304,None,,,02,Sajed,2020_Oct_11_2053,testScript1,3.2.3,59.94736621645226,
image/23-blur.jpg,image/23-original.jpg,0,21,21,21,,,233.19338609999977,None,235.75917109999864,None,Yes,1.697,0.013852520001819357,None,240.41998869999952,None,,,02,Sajed,2020_Oct_11_2053,testScript1,3.2.3,59.94736621645226,
image/24-blur.jpg,image/24-original.jpg,0,22,22,22,,,242.2167604999995,None,244.76426569999603,None,Yes,1.805,0.013830320007400587,None,249.41859429999022,None,,,02,Sajed,2020_Oct_11_2053,testScript1,3.2.3,59.94736621645226,
image/25-blur.jpg,image/25-original.jpg,0,23,23,23,,,251.3364964999928,None,253.86232259999088,None,Yes,2.67,0.013880519996746443,None,258.5166204999987,None,,,02,Sajed,2020_Oct_11_2053,testScript1,3.2.3,59.94736621645226,
image/26-blur.jpg,image/26-original.jpg,0,24,24,24,,,261.26745590000064,None,263.8539571000001,None,No,2.441,0.01351502000761684,None,268.5143696999876,None,,,02,Sajed,2020_Oct_11_2053,testScript1,3.2.3,59.94736621645226,
image/27-blur.jpg,image/27-original.jpg,0,25,25,25,,,271.035816299991,None,273.56439789998694,None,Yes,2.37,0.014959220003220253,None,278.2239239999908,None,,,02,Sajed,2020_Oct_11_2053,testScript1,3.2.3,59.94736621645226,
image/28-blur.jpg,image/28-original.jpg,0,26,26,26,,,280.6768419999862,None,283.29401909999433,None,Yes,1.737,0.014388719995622523,None,287.9453547999874,None,,,02,Sajed,2020_Oct_11_2053,testScript1,3.2.3,59.94736621645226,
image/29-blur.jpg,image/29-original.jpg,0,27,27,27,,,289.755839999998,None,292.3064561999927,None,Yes,2.798,0.014697620004881173,None,296.95945650000067,None,,,02,Sajed,2020_Oct_11_2053,testScript1,3.2.3,59.94736621645226,
image/30-blur.jpg,image/30-original.jpg,0,28,28,28,,,299.84784930000023,None,302.41471269998874,None,Yes,1.894,0.014082919995416887,None,307.0696339999995,None,,,02,Sajed,2020_Oct_11_2053,testScript1,3.2.3,59.94736621645226,
,,,,,,,,,,,,,,,,,,308.98230879999755,None,,,,,,,
